x,intensity
0,-16452552.000
1,-16440999.000
2,-16441285.000
3,-16428499.000
4,-16428562.000
5,-16439844.000
6,-16434941.000
7,-16423231.000
8,-16422963.000
9,-16433939.000
10,-16443096.000
11,-16448595.000
12,-16445984.000
13,-16435454.000
14,-16429724.000
15,-16431838.000
16,-16424652.000
17,-16404486.000
18,-16400394.000
19,-16420108.000
20,-16432448.000
21,-16431596.000
22,-16431093.000
23,-16430841.000
24,-16433015.000
25,-16439298.000
26,-16443532.000
27,-16440928.000
28,-16433606.000
29,-16432391.000
30,-16440310.000
31,-16444520.000
32,-16443548.000
33,-16436987.000
34,-16428978.000
35,-16435168.000
36,-16444974.000
37,-16442075.000
38,-16435684.000
39,-16430237.000
40,-16428588.000
41,-16436671.000
42,-16441404.000
43,-16436275.000
44,-16436770.000
45,-16442479.000
46,-16443183.000
47,-16444827.000
48,-16448261.000
49,-16448074.000
50,-16445782.000
51,-16446504.000
52,-16441276.000
53,-16433979.000
54,-16434224.000
55,-16441064.000
56,-16448148.000
57,-16446107.000
58,-16438106.000
59,-16437648.000
60,-16441822.000
61,-16438312.000
62,-16437840.000
63,-16442458.000
64,-16443633.000
65,-16438898.000
66,-16436048.000
67,-16441717.000
68,-16444879.000
69,-16444017.000
70,-16443701.000
71,-16443184.000
72,-16440546.000
73,-16437487.000
74,-16437120.000
75,-16443236.000
76,-16446155.000
77,-16446109.000
78,-16448161.000
79,-16443719.000
80,-16435287.000
81,-16431570.000
82,-16431708.000
83,-16428692.000
84,-16430360.000
85,-16436183.000
86,-16404079.000
87,-16274281.000
88,-15983084.000
89,-15542198.000
90,-15054471.000
91,-14412847.000
92,-13371154.000
93,-11786842.000
94,-9573719.000
95,-7179954.000
96,-5611251.500
97,-5237861.500
98,-5426977.000
99,-5542368.000
100,-5664602.500
101,-6049122.000
102,-6639204.000
103,-7174927.500
104,-7841217.000
105,-8777921.000
106,-9549823.000
107,-10161468.000
108,-10794145.000
109,-11361971.000
110,-11864801.000
111,-12369575.000
112,-12896948.000
113,-13389154.000
114,-13816254.000
115,-14186228.000
116,-14502595.000
117,-14763719.000
118,-14976911.000
119,-15170013.000
120,-15352620.000
121,-15505374.000
122,-15630924.000
123,-15749977.000
124,-15858290.000
125,-15964077.000
126,-16048239.000
127,-16106193.000
128,-16158361.000
129,-16218333.000
130,-16265886.000
131,-16295559.000
132,-16315207.000
133,-16339220.000
134,-16359347.000
135,-16368541.000
136,-16374652.000
137,-16384411.000
138,-16397625.000
139,-16407997.000
140,-16413419.000
141,-16414186.000
142,-16413503.000
143,-16409228.000
144,-16409276.000
145,-16415265.000
146,-16415868.000
147,-16411100.000
148,-16412571.000
149,-16421204.000
150,-16420803.000
151,-16415389.000
152,-16414249.000
153,-16417884.000
154,-16424134.000
155,-16426610.000
156,-16430836.000
157,-16434019.000
158,-16427781.000
159,-16422496.000
160,-16425042.000
161,-16423617.000
162,-16422236.000
163,-16420697.000
164,-16414037.000
165,-16414701.000
166,-16420502.000
167,-16422011.000
168,-16428345.000
169,-16436811.000
170,-16440881.000
171,-16443613.000
172,-16440357.000
173,-16435295.000
174,-16435003.000
175,-16437866.000
176,-16441638.000
177,-16438820.000
178,-16427835.000
179,-16426849.000
180,-16437965.000
181,-16439188.000
182,-16438048.000
183,-16441403.000
184,-16436924.000
185,-16429379.000
186,-16426395.000
187,-16431908.000
188,-16437382.000
189,-16435073.000
190,-16432642.000
191,-16435134.000
192,-16439239.000
193,-16437427.000
194,-16436015.000
195,-16437869.000
196,-16434626.000
197,-16428503.000
198,-16423694.000
199,-16425325.000
200,-16424839.000
201,-16420207.000
202,-16425057.000
203,-16430970.000
204,-16429575.000
205,-16429565.000
206,-16436571.000
207,-16441357.000
208,-16441282.000
209,-16439955.000
210,-16430355.000
211,-16424355.000
212,-16430749.000
213,-16435514.000
214,-16434634.000
215,-16429321.000
216,-16417077.000
217,-16400982.000
218,-16394613.000
219,-16397634.000
220,-16403638.000
221,-16409561.000
222,-16415639.000
223,-16421211.000
224,-16421460.000
225,-16418116.000
226,-16414571.000
227,-16412358.000
228,-16419466.000
229,-16431279.000
230,-16436731.000
231,-16435436.000
232,-16438718.000
233,-16442563.000
234,-16445173.000
235,-16446544.000
236,-16448643.000
237,-16449517.000
238,-16444637.000
239,-16439867.000
240,-16440196.000
241,-16440527.000
242,-16443154.000
243,-16448707.000
244,-16450924.000
245,-16450278.000
246,-16443115.000
247,-16426686.000
248,-16425332.000
249,-16438977.000
250,-16440917.000
251,-16432386.000
252,-16432195.000
253,-16439257.000
254,-16443743.000
255,-16446302.000
256,-16443988.000
257,-16441023.000
258,-16442733.000
259,-16445932.000
260,-16448015.000
261,-16444396.000
262,-16435795.000
263,-16431741.000
264,-16431872.000
265,-16434789.000
266,-16434520.000
267,-16435008.000
268,-16437092.000
269,-16438167.000
270,-16443309.000
271,-16448135.000
272,-16448836.000
273,-16443469.000
274,-16437763.000
275,-16438257.000
276,-16438486.000
277,-16439045.000
278,-16441685.000
279,-16443372.000
280,-16443793.000
281,-16440827.000
282,-16436195.000
283,-16435472.000
284,-16432918.000
285,-16426247.000
286,-16431359.000
287,-16444743.000
288,-16451107.000
289,-16448944.000
290,-16440387.000
291,-16434485.000
292,-16431514.000
293,-16429531.000
294,-16434698.000
295,-16441972.000
296,-16446306.000
297,-16446451.000
298,-16442302.000
299,-16443659.000
300,-16447473.000
301,-16443936.000
302,-16437901.000
303,-16437453.000
304,-16442624.000
305,-16447663.000
306,-16452030.000
307,-16453508.000
308,-16449253.000
309,-16444779.000
310,-16444147.000
311,-16443942.000
312,-16444647.000
313,-16442754.000
314,-16425868.000
315,-16412794.000
316,-16427713.000
317,-16445197.000
318,-16447024.000
319,-16440950.000
320,-16438607.000
321,-16442943.000
322,-16446903.000
323,-16451462.000
324,-16451139.000
325,-16443025.000
326,-16438024.000
327,-16439562.000
328,-16443926.000
329,-16445317.000
330,-16438674.000
331,-16433491.000
332,-16438277.000
333,-16440148.000
334,-16437527.000
335,-16442681.000
336,-16441346.000
337,-16434606.000
338,-16437543.000
339,-16443821.000
340,-16446183.000
341,-16442765.000
342,-16439229.000
343,-16441572.000
344,-16442639.000
345,-16440798.000
346,-16442352.000
347,-16444396.000
348,-16447275.000
349,-16453796.000
350,-16453030.000
351,-16442617.000
352,-16438028.000
353,-16441992.000
354,-16444785.000
355,-16445982.000
356,-16446520.000
357,-16445251.000
358,-16443134.000
359,-16443942.000
360,-16440508.000
361,-16436704.000
362,-16442485.000
363,-16449563.000
364,-16450531.000
365,-16450143.000
366,-16452330.000
367,-16453634.000
368,-16451450.000
369,-16444873.000
370,-16439657.000
371,-16437983.000
372,-16437533.000
373,-16436069.000
374,-16436467.000
375,-16439438.000
376,-16440685.000
377,-16438461.000
378,-16435903.000
379,-16433026.000
380,-16430889.000
381,-16434530.000
382,-16441032.000
383,-16441469.000
384,-16439667.000
385,-16444223.000
386,-16444179.000
387,-16441724.000
388,-16440418.000
389,-16439641.000
390,-16441041.000
391,-16433490.000
392,-16425786.000
393,-16434708.000
394,-16447535.000
395,-16449232.000
396,-16441322.000
397,-16434996.000
398,-16434277.000
399,-16437152.000
400,-16441688.000
401,-16440369.000
402,-16437347.000
403,-16441731.000
404,-16442862.000
405,-16434373.000
406,-16431492.000
407,-16435518.000
408,-16438263.000
409,-16443838.000
410,-16444411.000
411,-16441923.000
412,-16447137.000
413,-16448282.000
414,-16436591.000
415,-16431971.000
416,-16441459.000
417,-16446077.000
418,-16441737.000
419,-16438742.000
420,-16437147.000
421,-16434941.000
422,-16436789.000
423,-16443709.000
424,-16450060.000
425,-16451415.000
426,-16447554.000
427,-16441542.000
428,-16438775.000
429,-16440706.000
430,-16445251.000
431,-16448973.000
432,-16449483.000
433,-16447420.000
434,-16444350.000
435,-16444376.000
436,-16444629.000
437,-16440742.000
438,-16439134.000
439,-16440423.000
440,-16438126.000
441,-16435377.000
442,-16438842.000
443,-16442328.000
444,-16437133.000
445,-16425155.000
446,-16424973.000
447,-16440524.000
448,-16451116.000
449,-16451477.000
450,-16448325.000
451,-16441063.000
452,-16430998.000
453,-16427837.000
454,-16435133.000
455,-16445843.000
456,-16447958.000
457,-16443021.000
458,-16442467.000
459,-16441180.000
460,-16436798.000
461,-16435493.000
462,-16440227.000
463,-16443362.000
464,-16436911.000
465,-16434624.000
466,-16436741.000
467,-16433831.000
468,-16435881.000
469,-16442998.000
470,-16445187.000
471,-16445696.000
472,-16447598.000
473,-16448130.000
474,-16443965.000
475,-16429043.000
476,-16360803.000
477,-16200836.000
478,-15954405.000
479,-15620397.000
480,-15224691.000
481,-14626498.000
482,-13606963.000
483,-12269933.000
484,-10849319.000
485,-9641789.000
486,-9022475.000
487,-8881311.000
488,-8904300.000
489,-9067248.000
490,-9369442.000
491,-9719443.000
492,-10251269.000
493,-10894847.000
494,-11382006.000
495,-11839285.000
496,-12304971.000
497,-12709424.000
498,-13099723.000
499,-13481799.000
500,-13810956.000
501,-14152246.000
502,-14531022.000
503,-14834930.000
504,-15080364.000
505,-15299713.000
506,-15490943.000
507,-15650194.000
508,-15779804.000
509,-15892659.000
510,-15993505.000
511,-16065780.000
512,-16126910.000
513,-16195009.000
514,-16264274.000
515,-16318349.000
516,-16357915.000
517,-16385295.000
518,-16397258.000
519,-16401586.000
520,-16411503.000
521,-16420036.000
522,-16419847.000
523,-16421660.000
524,-16426988.000
525,-16426777.000
526,-16427040.000
527,-16430511.000
528,-16433127.000
529,-16430765.000
530,-16422870.000
531,-16426284.000
532,-16434142.000
533,-16433786.000
534,-16433938.000
535,-16436373.000
536,-16438590.000
537,-16440814.000
538,-16441894.000
539,-16442436.000
540,-16439944.000
541,-16432392.000
542,-16433201.000
543,-16440736.000
544,-16443603.000
545,-16446258.000
546,-16447528.000
547,-16444980.000
548,-16439744.000
549,-16434130.000
550,-16434014.000
551,-16438900.000
552,-16441506.000
553,-16440520.000
554,-16431489.000
555,-16422795.000
556,-16428250.000
557,-16440079.000
558,-16441714.000
559,-16436080.000
560,-16431002.000
561,-16424420.000
562,-16420630.000
563,-16432980.000
564,-16448558.000
565,-16450131.000
566,-16444584.000
567,-16437226.000
568,-16433777.000
569,-16431349.000
570,-16427198.000
571,-16431774.000
572,-16440974.000
573,-16442174.000
574,-16438662.000
575,-16438500.000
576,-16436246.000
577,-16432128.000
578,-16430503.000
579,-16435691.000
580,-16442633.000
581,-16443409.000
582,-16443027.000
583,-16444256.000
584,-16444421.000
585,-16441267.000
586,-16436572.000
587,-16432423.000
588,-16432033.000
589,-16435577.000
590,-16436263.000
591,-16437015.000
592,-16438745.000
593,-16439657.000
594,-16447464.000
595,-16455002.000
596,-16454351.000
597,-16448786.000
598,-16441536.000
599,-16441278.000
600,-16444533.000
601,-16440329.000
602,-16441245.000
603,-16448903.000
604,-16451607.000
605,-16448159.000
606,-16437065.000
607,-16426950.000
608,-16430731.000
609,-16440048.000
610,-16440683.000
611,-16440114.000
612,-16443223.000
613,-16438569.000
614,-16428994.000
615,-16429848.000
616,-16437854.000
617,-16438136.000
618,-16435936.000
619,-16436560.000
620,-16434603.000
621,-16433814.000
622,-16433224.000
623,-16423557.000
624,-16421297.000
625,-16433998.000
626,-16444239.000
627,-16446048.000
628,-16444915.000
629,-16441017.000
630,-16441400.000
631,-16447065.000
632,-16446371.000
633,-16439756.000
634,-16437789.000
635,-16439189.000
636,-16440356.000
637,-16443883.000
638,-16443832.000
639,-16436996.000
640,-16431827.000
641,-16432397.000
642,-16432765.000
643,-16435631.000
644,-16436064.000
645,-16438049.000
646,-16441959.000
647,-16434005.000
648,-16428887.000
649,-16433663.000
650,-16432389.000
651,-16431332.000
652,-16434942.000
653,-16439117.000
654,-16443011.000
655,-16444799.000
656,-16439311.000
657,-16415159.000
658,-16334771.000
659,-16183262.000
660,-15996008.000
661,-15723304.000
662,-15296797.000
663,-14621890.000
664,-13660132.000
665,-12701757.000
666,-12057384.000
667,-11697909.000
668,-11590739.000
669,-11630326.000
670,-11725071.000
671,-11917701.000
672,-12197223.000
673,-12451935.000
674,-12751555.000
675,-13171336.000
676,-13552345.000
677,-13837589.000
678,-14124963.000
679,-14424886.000
680,-14667333.000
681,-14905038.000
682,-15148071.000
683,-15359154.000
684,-15557180.000
685,-15724647.000
686,-15870356.000
687,-15999207.000
688,-16102920.000
689,-16167616.000
690,-16211960.000
691,-16254735.000
692,-16298298.000
693,-16334024.000
694,-16361935.000
695,-16385269.000
696,-16399288.000
697,-16404199.000
698,-16417078.000
699,-16430221.000
700,-16434391.000
701,-16437365.000
702,-16437586.000
703,-16435163.000
704,-16436999.000
705,-16439622.000
706,-16438162.000
707,-16427860.000
708,-16418577.000
709,-16424362.000
710,-16434739.000
711,-16439329.000
712,-16438110.000
713,-16438456.000
714,-16442815.000
715,-16446171.000
716,-16439508.000
717,-16425690.000
718,-16425057.000
719,-16429101.000
720,-16430079.000
721,-16436928.000
722,-16443014.000
723,-16439628.000
724,-16435440.000
725,-16431428.000
726,-16434611.000
727,-16442073.000
728,-16434421.000
729,-16426226.000
730,-16427447.000
731,-16430124.000
732,-16433186.000
733,-16437887.000
734,-16440393.000
735,-16437755.000
736,-16436220.000
737,-16440838.000
738,-16444676.000
739,-16440856.000
740,-16438789.000
741,-16439846.000
742,-16438716.000
743,-16439975.000
744,-16443618.000
745,-16444410.000
746,-16445043.000
747,-16443572.000
748,-16437531.000
749,-16429773.000
750,-16422847.000
751,-16426507.000
752,-16437362.000
753,-16440969.000
754,-16439092.000
755,-16440408.000
756,-16434477.000
757,-16424542.000
758,-16429408.000
759,-16434037.000
760,-16432680.000
761,-16437738.000
762,-16444625.000
763,-16438798.000
764,-16421785.000
765,-16415072.000
766,-16426886.000
767,-16438405.000
768,-16442551.000
769,-16446577.000
770,-16446502.000
771,-16436580.000
772,-16428757.000
773,-16431264.000
774,-16435337.000
775,-16437182.000
776,-16438697.000
777,-16438981.000
778,-16437255.000
779,-16436290.000
780,-16436613.000
781,-16435919.000
782,-16432920.000
783,-16429979.000
784,-16426709.000
785,-16426520.000
786,-16436141.000
787,-16445009.000
788,-16443546.000
789,-16445462.000
790,-16449378.000
791,-16445232.000
792,-16440946.000
793,-16442873.000
794,-16441988.000
795,-16434614.000
796,-16433579.000
797,-16435319.000
798,-16431526.000
799,-16433975.000
800,-16441120.000
801,-16442329.000
802,-16444141.000
803,-16442727.000
804,-16434108.000
805,-16435702.000
806,-16443613.000
807,-16443854.000
808,-16443935.000
809,-16443997.000
810,-16441405.000
811,-16437378.000
812,-16438573.000
813,-16443554.000
814,-16437096.000
815,-16427792.000
816,-16434496.000
817,-16445923.000
818,-16447649.000
819,-16444308.000
820,-16446268.000
821,-16445620.000
822,-16433227.000
823,-16425726.000
824,-16431324.000
825,-16443753.000
826,-16449810.000
827,-16448236.000
828,-16446510.000
829,-16445179.000
830,-16446579.000
831,-16444779.000
832,-16439575.000
833,-16436130.000
834,-16438638.000
835,-16442971.000
836,-16439691.000
837,-16435977.000
838,-16435923.000
839,-16435780.000
840,-16436724.000
841,-16438513.000
842,-16435048.000
843,-16424880.000
844,-16423868.000
845,-16436156.000
846,-16438012.000
847,-16433642.000
848,-16438782.000
849,-16445005.000
850,-16441079.000
851,-16431859.000
852,-16430160.000
853,-16430233.000
854,-16429139.000
855,-16433354.000
856,-16438266.000
857,-16439167.000
858,-16438721.000
859,-16435583.000
860,-16436699.000
861,-16443701.000
862,-16445049.000
863,-16437639.000
864,-16431357.000
865,-16432516.000
866,-16439643.000
867,-16446290.000
868,-16446324.000
869,-16442885.000
870,-16445372.000
871,-16449422.000
872,-16442271.000
873,-16433503.000
874,-16433565.000
875,-16437471.000
876,-16440964.000
877,-16446597.000
878,-16449352.000
879,-16439010.000
880,-16435733.000
881,-16447091.000
882,-16453438.000
883,-16448944.000
884,-16435002.000
885,-16424473.000
886,-16429498.000
887,-16438383.000
888,-16439366.000
889,-16441851.000
890,-16446718.000
891,-16444487.000
892,-16441378.000
893,-16437635.000
894,-16435771.000
895,-16442147.000
896,-16442932.000
897,-16436149.000
898,-16439337.000
899,-16449325.000
900,-16452214.000
901,-16452182.000
902,-16450476.000
903,-16443245.000
904,-16436077.000
905,-16435154.000
906,-16435730.000
907,-16431300.000
908,-16434085.000
909,-16445519.000
910,-16451053.000
911,-16451829.000
912,-16448816.000
913,-16439915.000
914,-16433875.000
915,-16435858.000
916,-16439614.000
917,-16439191.000
918,-16441435.000
919,-16448122.000
920,-16451445.000
921,-16450739.000
922,-16443834.000
923,-16441589.000
924,-16447764.000
925,-16447539.000
926,-16438624.000
927,-16429592.000
928,-16426194.000
929,-16432007.000
930,-16441239.000
931,-16444663.000
932,-16443845.000
933,-16442266.000
934,-16440957.000
935,-16441733.000
936,-16445292.000
937,-16444549.000
938,-16440598.000
939,-16443277.000
940,-16448610.000
941,-16446826.000
942,-16440065.000
943,-16437226.000
944,-16439412.000
945,-16440968.000
946,-16443115.000
947,-16447976.000
948,-16448194.000
949,-16443820.000
950,-16441834.000
951,-16441880.000
952,-16441739.000
953,-16444845.000
954,-16447523.000
955,-16446685.000
956,-16448169.000
957,-16451637.000
958,-16453060.000
959,-16451785.000
960,-16447185.000
961,-16438611.000
962,-16432688.000
963,-16437381.000
964,-16446469.000
965,-16451805.000
966,-16451948.000
967,-16446395.000
968,-16442658.000
969,-16443746.000
970,-16442787.000
971,-16441067.000
972,-16441413.000
973,-16443725.000
974,-16446985.000
975,-16447120.000
976,-16444091.000
977,-16439613.000
978,-16437649.000
979,-16442342.000
980,-16448519.000
981,-16452450.000
982,-16454362.000
983,-16452863.000
984,-16449575.000
985,-16445083.000
986,-16441312.000
987,-16441605.000
988,-16439145.000
989,-16438459.000
990,-16440962.000
991,-16437365.000
992,-16437908.000
993,-16443971.000
994,-16446418.000
995,-16447736.000
996,-16447502.000
997,-16442923.000
998,-16438595.000
999,-16436132.000
1000,-16438296.000
1001,-16441228.000
1002,-16437768.000
1003,-16434639.000
1004,-16431457.000
1005,-16432050.000
1006,-16434209.000
1007,-16431949.000
1008,-16437743.000
1009,-16446381.000
1010,-16449180.000
1011,-16450012.000
1012,-16446341.000
1013,-16444885.000
1014,-16445131.000
1015,-16440263.000
1016,-16439253.000
1017,-16444190.000
1018,-16446494.000
1019,-16442169.000
1020,-16434942.000
1021,-16433413.000
1022,-16441061.000
1023,-16447383.000
1024,-16441265.000
1025,-16429737.000
1026,-16414214.000
1027,-16380163.000
1028,-16348873.000
1029,-16280019.000
1030,-16091746.000
1031,-15815709.000
1032,-15475067.000
1033,-15175346.000
1034,-15042084.000
1035,-14997080.000
1036,-14997464.000
1037,-15054416.000
1038,-15130045.000
1039,-15208102.000
1040,-15316355.000
1041,-15433872.000
1042,-15542065.000
1043,-15663140.000
1044,-15787055.000
1045,-15887103.000
1046,-15975686.000
1047,-16066362.000
1048,-16138372.000
1049,-16206648.000
1050,-16274130.000
1051,-16327098.000
1052,-16356723.000
1053,-16381482.000
1054,-16405025.000
1055,-16420442.000
1056,-16426977.000
1057,-16429152.000
1058,-16432747.000
1059,-16440953.000
1060,-16444846.000
1061,-16442738.000
1062,-16439844.000
1063,-16440308.000
1064,-16441007.000
1065,-16441282.000
1066,-16441523.000
1067,-16437365.000
1068,-16438002.000
1069,-16440964.000
1070,-16443792.000
1071,-16446788.000
1072,-16443236.000
1073,-16438876.000
1074,-16438716.000
1075,-16443053.000
1076,-16446804.000
1077,-16448332.000
1078,-16448099.000
1079,-16444974.000
1080,-16445435.000
1081,-16447937.000
1082,-16446253.000
1083,-16444212.000
1084,-16444779.000
1085,-16445398.000
1086,-16445008.000
1087,-16443176.000
1088,-16438956.000
1089,-16439112.000
1090,-16446211.000
1091,-16450317.000
1092,-16450584.000
1093,-16447451.000
1094,-16440800.000
1095,-16441814.000
1096,-16446369.000
1097,-16439781.000
1098,-16431413.000
1099,-16433904.000
1100,-16441503.000
1101,-16443604.000
1102,-16440206.000
1103,-16439241.000
1104,-16439970.000
1105,-16434442.000
1106,-16430900.000
1107,-16433510.000
1108,-16435887.000
1109,-16441556.000
1110,-16442672.000
1111,-16437748.000
1112,-16440959.000
1113,-16446724.000
1114,-16447436.000
1115,-16444235.000
1116,-16437659.000
1117,-16431284.000
1118,-16433639.000
1119,-16441558.000
1120,-16443920.000
1121,-16440914.000
1122,-16434877.000
1123,-16430520.000
1124,-16435227.000
1125,-16443736.000
1126,-16442982.000
1127,-16435989.000
1128,-16436790.000
1129,-16440200.000
1130,-16438101.000
1131,-16439362.000
1132,-16444464.000
1133,-16448114.000
1134,-16449897.000
1135,-16449910.000
1136,-16445888.000
1137,-16444673.000
1138,-16449921.000
1139,-16452219.000
1140,-16448207.000
1141,-16439906.000
1142,-16435625.000
1143,-16434338.000
1144,-16436418.000
1145,-16441570.000
1146,-16442999.000
1147,-16442403.000
1148,-16445031.000
1149,-16444261.000
1150,-16440800.000
1151,-16443552.000
1152,-16446883.000
1153,-16448605.000
1154,-16449752.000
1155,-16449051.000
1156,-16448411.000
1157,-16448335.000
1158,-16443192.000
1159,-16435516.000
1160,-16439946.000
1161,-16446609.000
1162,-16442930.000
1163,-16441263.000
1164,-16444708.000
1165,-16444897.000
1166,-16441856.000
1167,-16437271.000
1168,-16438415.000
1169,-16443064.000
1170,-16444109.000
1171,-16446104.000
1172,-16448845.000
1173,-16446724.000
1174,-16437185.000
1175,-16434819.000
1176,-16444380.000
1177,-16449383.000
1178,-16445101.000
1179,-16439341.000
1180,-16433431.000
1181,-16433983.000
1182,-16440376.000
1183,-16446673.000
1184,-16452446.000
1185,-16450263.000
1186,-16443355.000
1187,-16442388.000
1188,-16446323.000
1189,-16449261.000
1190,-16445105.000
1191,-16429135.000
1192,-16421708.000
1193,-16433987.000
1194,-16441799.000
1195,-16440122.000
1196,-16444722.000
1197,-16451211.000
1198,-16448887.000
1199,-16442243.000
1200,-16443549.000
1201,-16449465.000
1202,-16451479.000
1203,-16448210.000
1204,-16442701.000
1205,-16437940.000
1206,-16432749.000
1207,-16427289.000
1208,-16428049.000
1209,-16434703.000
1210,-16438800.000
1211,-16439490.000
1212,-16441335.000
1213,-16449030.000
1214,-16452926.000
1215,-16443922.000
1216,-16436340.000
1217,-16439631.000
1218,-16440826.000
1219,-16438329.000
1220,-16440385.000
1221,-16443828.000
1222,-16442047.000
1223,-16439868.000
1224,-16444904.000
1225,-16450629.000
1226,-16450405.000
1227,-16449153.000
1228,-16450684.000
1229,-16449777.000
1230,-16442940.000
1231,-16435867.000
1232,-16432285.000
1233,-16433675.000
1234,-16438522.000
1235,-16436292.000
1236,-16423838.000
1237,-16413541.000
1238,-16420119.000
1239,-16439955.000
1240,-16449461.000
1241,-16449008.000
1242,-16446963.000
1243,-16440681.000
1244,-16439267.000
1245,-16441713.000
1246,-16443451.000
1247,-16445932.000
1248,-16448360.000
1249,-16450872.000
1250,-16451186.000
1251,-16443782.000
1252,-16432869.000
1253,-16430678.000
1254,-16437066.000
1255,-16440715.000
1256,-16435028.000
1257,-16428190.000
1258,-16417705.000
1259,-16414750.000
1260,-16424386.000
1261,-16431494.000
1262,-16438589.000
1263,-16443889.000
1264,-16446389.000
1265,-16447579.000
1266,-16440478.000
1267,-16427814.000
1268,-16428219.000
1269,-16437386.000
1270,-16433909.000
1271,-16421678.000
1272,-16422159.000
1273,-16437605.000
1274,-16445964.000
1275,-16439866.000
1276,-16431883.000
1277,-16434220.000
1278,-16433035.000
1279,-16421519.000
1280,-16416884.000
1281,-16428041.000
1282,-16430295.000
1283,-16436443.000
1284,-16458947.000
1285,-16458634.000
1286,-16453921.000
1287,NaN
